#  HZ   S   DB   R     50.00
! Rohde & Schwarz Vector Network Analyzer
! Rohde-Schwarz,ZNA26-4Port,1332450024101475,2.90
! Created: UTC 5/21/2025, 7:06:31 PM
! freq[Hz]                db:S11                  ang:S11
1.000000e+07  0.079174   -0.220267
2.000000e+07  0.137454   -0.454126
3.000000e+07  0.104573   -0.712911
4.000000e+07  0.043716   -1.058085
5.000000e+07  0.014605   -1.356776
6.000000e+07  0.000449   -1.726363
7.000000e+07  0.009031   -1.958136
8.000000e+07  0.012270   -2.206252
9.000000e+07  0.012358   -2.484649
1.000000e+08  0.006828   -2.802680
1.100000e+08  0.001725   -3.111633
1.200000e+08  0.007922   -3.368118
1.300000e+08  0.011254   -3.626763
1.400000e+08  0.013594   -3.901972
1.500000e+08  0.009048   -4.207154
1.600000e+08  0.003177   -4.527538
1.700000e+08  0.002853   -4.822260
1.800000e+08  0.006533   -5.059104
1.900000e+08  0.009977   -5.301734
2.000000e+08  0.009763   -5.585150
2.100000e+08  0.008018   -5.900287
2.200000e+08  0.003144   -6.216491
2.300000e+08  0.000945   -6.518859
2.400000e+08  0.002516   -6.778089
2.500000e+08  0.004049   -7.027490
2.600000e+08  0.007104   -7.313864
2.700000e+08  0.004316   -7.610690
2.800000e+08  0.003297   -7.897095
2.900000e+08  0.004021   -8.172909
3.000000e+08  0.005978   -8.443964
3.100000e+08  0.004172   -8.719421
3.200000e+08  0.003764   -9.018352
3.300000e+08  0.002825   -9.324792
3.400000e+08  0.003437   -9.596788
3.500000e+08  0.004379   -9.851062
3.600000e+08  0.007260  -10.081895
3.700000e+08  0.008541  -10.348720
3.800000e+08  0.008247  -10.704763
3.900000e+08  0.006823  -11.027857
4.000000e+08  0.003967  -11.316914
4.100000e+08  0.004362  -11.567808
4.200000e+08  0.003663  -11.829536
4.300000e+08  0.005422  -12.107321
4.400000e+08  0.006114  -12.399919
4.500000e+08  0.005713  -12.692845
4.600000e+08  0.005363  -12.973474
4.700000e+08  0.005337  -13.256391
4.800000e+08  0.006786  -13.545178
4.900000e+08  0.007551  -13.830554
5.000000e+08  0.006423  -14.120760
5.100000e+08  0.007544  -14.387816
5.200000e+08  0.006091  -14.642200
5.300000e+08  0.007817  -14.917072
5.400000e+08  0.004553  -15.200224
5.500000e+08  0.005761  -15.498633
5.600000e+08  0.003515  -15.785639
5.700000e+08  0.004368  -16.070041
5.800000e+08  0.003131  -16.335327
5.900000e+08  0.002438  -16.621643
6.000000e+08  0.003963  -16.921881
6.100000e+08  0.003782  -17.217354
6.200000e+08  0.004946  -17.517197
6.300000e+08  0.005295  -17.785767
6.400000e+08  0.002156  -18.063737
6.500000e+08  0.001969  -18.353972
6.600000e+08  0.003270  -18.620071
6.700000e+08  0.002510  -18.902517
6.800000e+08  0.002195  -19.178542
6.900000e+08  0.000208  -19.443630
7.000000e+08  0.000262  -19.710295
7.100000e+08  0.000622  -19.992368
7.200000e+08  0.001240  -20.276030
7.300000e+08  0.000501  -20.556071
7.400000e+08 -0.000165  -20.831435
7.500000e+08 -0.001475  -21.108252
7.600000e+08 -0.002224  -21.392482
7.700000e+08 -0.001788  -21.683750
7.800000e+08 -0.002090  -21.988147
7.900000e+08 -0.001533  -22.278643
8.000000e+08 -0.001287  -22.571779
8.100000e+08 -0.003256  -22.858731
8.200000e+08 -0.002884  -23.138449
8.300000e+08 -0.001852  -23.424116
8.400000e+08 -0.002216  -23.692947
8.500000e+08 -0.002011  -23.961020
8.600000e+08 -0.002458  -24.231532
8.700000e+08 -0.001216  -24.499562
8.800000e+08  0.000177  -24.763852
8.900000e+08 -0.000091  -25.047156
9.000000e+08  0.000396  -25.325726
9.100000e+08 -0.000625  -25.602394
9.200000e+08 -0.001006  -25.885465
9.300000e+08 -0.001784  -26.171976
9.400000e+08  0.000597  -26.456172
9.500000e+08  0.000697  -26.750278
9.600000e+08 -0.000908  -27.039792
9.700000e+08 -0.001486  -27.328471
9.800000e+08 -0.002039  -27.607396
9.900000e+08 -0.002136  -27.887488
1.000000e+09 -0.001575  -28.166713
1.010000e+09 -0.001300  -28.432221
1.020000e+09 -0.001238  -28.698275
1.030000e+09 -0.001326  -28.970530
1.040000e+09 -0.001340  -29.237847
1.050000e+09 -0.000531  -29.504969
1.060000e+09  0.000532  -29.776405
1.070000e+09  0.000768  -30.045429
1.080000e+09  0.001541  -30.316013
1.090000e+09  0.001242  -30.588364
1.100000e+09 -0.000368  -30.874159
1.110000e+09 -0.001001  -31.173411
1.120000e+09 -0.000729  -31.476804
1.130000e+09  0.000447  -31.778920
1.140000e+09 -0.000018  -32.074627
1.150000e+09  0.000198  -32.364630
1.160000e+09  0.000399  -32.639339
1.170000e+09 -0.000045  -32.915851
1.180000e+09 -0.000332  -33.201938
1.190000e+09 -0.001026  -33.482825
1.200000e+09 -0.001259  -33.774101
1.210000e+09 -0.002364  -34.050094
1.220000e+09 -0.002680  -34.328543
1.230000e+09 -0.002642  -34.618122
1.240000e+09 -0.002704  -34.902050
1.250000e+09 -0.002726  -35.180873
1.260000e+09 -0.003531  -35.457437
1.270000e+09 -0.004504  -35.726898
1.280000e+09 -0.006668  -36.009385
1.290000e+09 -0.009409  -36.298700
1.300000e+09 -0.012530  -36.590452
1.310000e+09 -0.013176  -36.896469
1.320000e+09 -0.011481  -37.202578
1.330000e+09 -0.010240  -37.504828
1.340000e+09 -0.005842  -37.784712
1.350000e+09 -0.002763  -38.054418
1.360000e+09 -0.001923  -38.324688
1.370000e+09 -0.001600  -38.584401
1.380000e+09  0.000288  -38.847434
1.390000e+09  0.001818  -39.109214
1.400000e+09 -0.000120  -39.375284
1.410000e+09 -0.002135  -39.640580
1.420000e+09 -0.004759  -39.919541
1.430000e+09 -0.006550  -40.203262
1.440000e+09 -0.007285  -40.495162
1.450000e+09 -0.007639  -40.792190
1.460000e+09 -0.007097  -41.089676
1.470000e+09 -0.005378  -41.387912
1.480000e+09 -0.002798  -41.640929
1.490000e+09 -0.002795  -41.940039
1.500000e+09 -0.005101  -42.203543
1.510000e+09 -0.006594  -42.473058
1.520000e+09 -0.007069  -42.748302
1.530000e+09 -0.008591  -43.027506
1.540000e+09 -0.009184  -43.291953
1.550000e+09 -0.010149  -43.559367
1.560000e+09 -0.010086  -43.824725
1.570000e+09 -0.009169  -44.089929
1.580000e+09 -0.009541  -44.356951
1.590000e+09 -0.008526  -44.623798
1.600000e+09 -0.007632  -44.893283
1.610000e+09 -0.008293  -45.166787
1.620000e+09 -0.009340  -45.456999
1.630000e+09 -0.009906  -45.748445
1.640000e+09 -0.010302  -46.035460
1.650000e+09 -0.011140  -46.324077
1.660000e+09 -0.013012  -46.610645
1.670000e+09 -0.015436  -46.893333
1.680000e+09 -0.015776  -47.181347
1.690000e+09 -0.015426  -47.478085
1.700000e+09 -0.015981  -47.769023
1.710000e+09 -0.015406  -48.037048
1.720000e+09 -0.015315  -48.309485
1.730000e+09 -0.015557  -48.580288
1.740000e+09 -0.015945  -48.847649
1.750000e+09 -0.015313  -49.108865
1.760000e+09 -0.013562  -49.378291
1.770000e+09 -0.012784  -49.651375
1.780000e+09 -0.014716  -49.921498
1.790000e+09 -0.017969  -50.193166
1.800000e+09 -0.020504  -50.477886
1.810000e+09 -0.021702  -50.768763
1.820000e+09 -0.022113  -51.053372
1.830000e+09 -0.023887  -51.346087
1.840000e+09 -0.023797  -51.635457
1.850000e+09 -0.023651  -51.933697
1.860000e+09 -0.024133  -52.230718
1.870000e+09 -0.024279  -52.504338
1.880000e+09 -0.018362  -52.757527
1.890000e+09 -0.013511  -52.996977
1.900000e+09 -0.015541  -53.223972
1.910000e+09 -0.022155  -53.498113
1.920000e+09 -0.022945  -53.771697
1.930000e+09 -0.023606  -54.050227
1.940000e+09 -0.023079  -54.327467
1.950000e+09 -0.023006  -54.613060
1.960000e+09 -0.024364  -54.898992
1.970000e+09 -0.025388  -55.198757
1.980000e+09 -0.024256  -55.500422
1.990000e+09 -0.023147  -55.791756
2.000000e+09 -0.022620  -56.065415
2.010000e+09 -0.028497  -56.301192
2.020000e+09 -0.034549  -56.551667
2.030000e+09 -0.034605  -56.849431
2.040000e+09 -0.033886  -57.122418
2.050000e+09 -0.032947  -57.402580
2.060000e+09 -0.032694  -57.665040
2.070000e+09 -0.032292  -57.921155
2.080000e+09 -0.033345  -58.194266
2.090000e+09 -0.033576  -58.458951
2.100000e+09 -0.032801  -58.722370
2.110000e+09 -0.031249  -58.986830
2.120000e+09 -0.029540  -59.253922
2.130000e+09 -0.029389  -59.531834
2.140000e+09 -0.029002  -59.818844
2.150000e+09 -0.029065  -60.109248
2.160000e+09 -0.029585  -60.405005
2.170000e+09 -0.028294  -60.694962
2.180000e+09 -0.027092  -60.987769
2.190000e+09 -0.025931  -61.280143
2.200000e+09 -0.024571  -61.573843
2.210000e+09 -0.023697  -61.850868
2.220000e+09 -0.022148  -62.125999
2.230000e+09 -0.019797  -62.377411
2.240000e+09 -0.019253  -62.645965
2.250000e+09 -0.020351  -62.927116
2.260000e+09 -0.021181  -63.199575
2.270000e+09 -0.021097  -63.459684
2.280000e+09 -0.020820  -63.734493
2.290000e+09 -0.019555  -63.995659
2.300000e+09 -0.018647  -64.269017
2.310000e+09 -0.017197  -64.539858
2.320000e+09 -0.016057  -64.817423
2.330000e+09 -0.015113  -65.095880
2.340000e+09 -0.014327  -65.379988
2.350000e+09 -0.013790  -65.669718
2.360000e+09 -0.014134  -65.958915
2.370000e+09 -0.013632  -66.245348
2.380000e+09 -0.013479  -66.525660
2.390000e+09 -0.012618  -66.809078
2.400000e+09 -0.011401  -67.079907
2.410000e+09 -0.009153  -67.333777
2.420000e+09 -0.008556  -67.595341
2.430000e+09 -0.009439  -67.842654
2.440000e+09 -0.011596  -68.108275
2.450000e+09 -0.012261  -68.365380
2.460000e+09 -0.010354  -68.648765
2.470000e+09 -0.007687  -68.914123
2.480000e+09 -0.006668  -69.178608
2.490000e+09 -0.006810  -69.441284
2.500000e+09 -0.006338  -69.715859
2.510000e+09 -0.006387  -69.999184
2.520000e+09 -0.006602  -70.276342
2.530000e+09 -0.006399  -70.562381
2.540000e+09 -0.006234  -70.845562
2.550000e+09 -0.006847  -71.120550
2.560000e+09 -0.006616  -71.402179
2.570000e+09 -0.006208  -71.673199
2.580000e+09 -0.006820  -71.942505
2.590000e+09 -0.005979  -72.206606
2.600000e+09 -0.008859  -72.478987
2.610000e+09 -0.007233  -72.750230
2.620000e+09 -0.004747  -73.019854
2.630000e+09 -0.000160  -73.278408
2.640000e+09  0.003281  -73.540012
2.650000e+09  0.004998  -73.808305
2.660000e+09  0.006805  -74.073634
2.670000e+09  0.004901  -74.327287
2.680000e+09  0.002473  -74.609743
2.690000e+09  0.001818  -74.889722
2.700000e+09  0.001357  -75.179747
2.710000e+09  0.001453  -75.450150
2.720000e+09  0.001683  -75.711268
2.730000e+09 -0.000553  -75.990990
2.740000e+09 -0.002693  -76.268746
2.750000e+09 -0.001993  -76.555008
2.760000e+09 -0.003059  -76.841651
2.770000e+09 -0.000852  -77.113333
2.780000e+09  0.002470  -77.374758
2.790000e+09  0.005498  -77.633336
2.800000e+09  0.009031  -77.891964
2.810000e+09  0.008637  -78.145237
2.820000e+09  0.007739  -78.405164
2.830000e+09  0.006619  -78.678878
2.840000e+09  0.005226  -78.948956
2.850000e+09  0.004279  -79.237054
2.860000e+09  0.004203  -79.525248
2.870000e+09  0.004795  -79.801266
2.880000e+09  0.004342  -80.077763
2.890000e+09  0.004099  -80.350857
2.900000e+09  0.003795  -80.621113
2.910000e+09  0.003324  -80.896197
2.920000e+09  0.003959  -81.152816
2.930000e+09  0.002863  -81.430845
2.940000e+09  0.003803  -81.699454
2.950000e+09  0.005207  -81.964714
2.960000e+09  0.005024  -82.227081
2.970000e+09  0.008925  -82.490791
2.980000e+09  0.008612  -82.740665
2.990000e+09  0.007822  -83.008040
3.000000e+09  0.006823  -83.266241
3.010000e+09  0.006889  -83.557083
3.020000e+09  0.006937  -83.841197
3.030000e+09  0.005795  -84.108060
3.040000e+09  0.004338  -84.375124
3.050000e+09  0.003039  -84.669521
3.060000e+09  0.002809  -84.943841
3.070000e+09  0.001570  -85.227209
3.080000e+09  0.001715  -85.499527
3.090000e+09  0.001574  -85.783339
3.100000e+09  0.002495  -86.042242
3.110000e+09  0.002378  -86.310336
3.120000e+09  0.004111  -86.567526
3.130000e+09  0.003745  -86.808105
3.140000e+09  0.003613  -87.066352
3.150000e+09  0.003338  -87.314047
3.160000e+09  0.002206  -87.577321
3.170000e+09  0.001470  -87.837109
3.180000e+09  0.000552  -88.106082
3.190000e+09 -0.001184  -88.388668
3.200000e+09 -0.001763  -88.667385
3.210000e+09 -0.002011  -88.945946
3.220000e+09 -0.001791  -89.229929
3.230000e+09 -0.000985  -89.513516
3.240000e+09 -0.002121  -89.795133
3.250000e+09 -0.001493  -90.053883
3.260000e+09 -0.001258  -90.322575
3.270000e+09 -0.002764  -90.578965
3.280000e+09 -0.002589  -90.840495
3.290000e+09 -0.003672  -91.104255
3.300000e+09 -0.003843  -91.360744
3.310000e+09 -0.005858  -91.613348
3.320000e+09 -0.007117  -91.875087
3.330000e+09 -0.008134  -92.142009
3.340000e+09 -0.009299  -92.416175
3.350000e+09 -0.009507  -92.686635
3.360000e+09 -0.009593  -92.960425
3.370000e+09 -0.009910  -93.235105
3.380000e+09 -0.009636  -93.507800
3.390000e+09 -0.012480  -93.783775
3.400000e+09 -0.013997  -94.069293
3.410000e+09 -0.014571  -94.352853
3.420000e+09 -0.016084  -94.636837
3.430000e+09 -0.017402  -94.907214
3.440000e+09 -0.016977  -95.180120
3.450000e+09 -0.017282  -95.436476
3.460000e+09 -0.015922  -95.698568
3.470000e+09 -0.016315  -95.970345
3.480000e+09 -0.016582  -96.212037
3.490000e+09 -0.016572  -96.469838
3.500000e+09 -0.016135  -96.728689
3.510000e+09 -0.015178  -96.983918
3.520000e+09 -0.013635  -97.241195
3.530000e+09 -0.012791  -97.522053
3.540000e+09 -0.014914  -97.810371
3.550000e+09 -0.016062  -98.082142
3.560000e+09 -0.017951  -98.374338
3.570000e+09 -0.018943  -98.653532
3.580000e+09 -0.020948  -98.936426
3.590000e+09 -0.022795  -99.231380
3.600000e+09 -0.022879  -99.503885
3.610000e+09 -0.022469  -99.769984
3.620000e+09 -0.023039 -100.042727
3.630000e+09 -0.022291 -100.300777
3.640000e+09 -0.021788 -100.561536
3.650000e+09 -0.022161 -100.816645
3.660000e+09 -0.022173 -101.071697
3.670000e+09 -0.022018 -101.319541
3.680000e+09 -0.022737 -101.575494
3.690000e+09 -0.022289 -101.832387
3.700000e+09 -0.025319 -102.098510
3.710000e+09 -0.026720 -102.365001
3.720000e+09 -0.028159 -102.656336
3.730000e+09 -0.029303 -102.945513
3.740000e+09 -0.030157 -103.244709
3.750000e+09 -0.030108 -103.544416
3.760000e+09 -0.027451 -103.820776
3.770000e+09 -0.026557 -104.098231
3.780000e+09 -0.027568 -104.358748
3.790000e+09 -0.028408 -104.634741
3.800000e+09 -0.029123 -104.895359
3.810000e+09 -0.030539 -105.162305
3.820000e+09 -0.029968 -105.429934
3.830000e+09 -0.030084 -105.693382
3.840000e+09 -0.030018 -105.933946
3.850000e+09 -0.029562 -106.189582
3.860000e+09 -0.030633 -106.441619
3.870000e+09 -0.031880 -106.712867
3.880000e+09 -0.033221 -106.970878
3.890000e+09 -0.035266 -107.263872
3.900000e+09 -0.035787 -107.535920
3.910000e+09 -0.036161 -107.830102
3.920000e+09 -0.034291 -108.117564
3.930000e+09 -0.036442 -108.401516
3.940000e+09 -0.032269 -108.685214
3.950000e+09 -0.034172 -108.937638
3.960000e+09 -0.031126 -109.248491
3.970000e+09 -0.027475 -109.494659
3.980000e+09 -0.033766 -109.785486
3.990000e+09 -0.032988 -110.074021
4.000000e+09 -0.036810 -110.290945
4.010000e+09 -0.038353 -110.564923
4.020000e+09 -0.036325 -110.813460
4.030000e+09 -0.038254 -111.078811
4.040000e+09 -0.037374 -111.356208
4.050000e+09 -0.037874 -111.627406
4.060000e+09 -0.037377 -111.896808
4.070000e+09 -0.037367 -112.167138
4.080000e+09 -0.036673 -112.434715
4.090000e+09 -0.038120 -112.722927
4.100000e+09 -0.039105 -112.999124
4.110000e+09 -0.041383 -113.296111
4.120000e+09 -0.041819 -113.584148
4.130000e+09 -0.041450 -113.861735
4.140000e+09 -0.040651 -114.136247
4.150000e+09 -0.039781 -114.403687
4.160000e+09 -0.038780 -114.659788
4.170000e+09 -0.038553 -114.916497
4.180000e+09 -0.039185 -115.172127
4.190000e+09 -0.038113 -115.425173
4.200000e+09 -0.038823 -115.674811
4.210000e+09 -0.039417 -115.934821
4.220000e+09 -0.039725 -116.188152
4.230000e+09 -0.039561 -116.451985
4.240000e+09 -0.040542 -116.714818
4.250000e+09 -0.040200 -116.980823
4.260000e+09 -0.039730 -117.246240
4.270000e+09 -0.040243 -117.536083
4.280000e+09 -0.041886 -117.821125
4.290000e+09 -0.042450 -118.109188
4.300000e+09 -0.042371 -118.388769
4.310000e+09 -0.042233 -118.661678
4.320000e+09 -0.042118 -118.930444
4.330000e+09 -0.039936 -119.198204
4.340000e+09 -0.039588 -119.461911
4.350000e+09 -0.040693 -119.726612
4.360000e+09 -0.039807 -119.981280
4.370000e+09 -0.040879 -120.244664
4.380000e+09 -0.041343 -120.498130
4.390000e+09 -0.042583 -120.767195
4.400000e+09 -0.042891 -121.029202
4.410000e+09 -0.042114 -121.296250
4.420000e+09 -0.043045 -121.565062
4.430000e+09 -0.040589 -121.831818
4.440000e+09 -0.039660 -122.091442
4.450000e+09 -0.040617 -122.382775
4.460000e+09 -0.041069 -122.661080
4.470000e+09 -0.040808 -122.931703
4.480000e+09 -0.041269 -123.204412
4.490000e+09 -0.041500 -123.471085
4.500000e+09 -0.038972 -123.718808
4.510000e+09 -0.037935 -123.981383
4.520000e+09 -0.037997 -124.244677
4.530000e+09 -0.038804 -124.495949
4.540000e+09 -0.040587 -124.765777
4.550000e+09 -0.040614 -125.017122
4.560000e+09 -0.040252 -125.275604
4.570000e+09 -0.040020 -125.540168
4.580000e+09 -0.040180 -125.809133
4.590000e+09 -0.040045 -126.078293
4.600000e+09 -0.038885 -126.339406
4.610000e+09 -0.037567 -126.607579
4.620000e+09 -0.035861 -126.885766
4.630000e+09 -0.034660 -127.141363
4.640000e+09 -0.035854 -127.421632
4.650000e+09 -0.035019 -127.672405
4.660000e+09 -0.036351 -127.930823
4.670000e+09 -0.036628 -128.208683
4.680000e+09 -0.037120 -128.448508
4.690000e+09 -0.039224 -128.723909
4.700000e+09 -0.034580 -128.969508
4.710000e+09 -0.033758 -129.220160
4.720000e+09 -0.033516 -129.495734
4.730000e+09 -0.030873 -129.728501
4.740000e+09 -0.031380 -129.989149
4.750000e+09 -0.030820 -130.236856
4.760000e+09 -0.030466 -130.497967
4.770000e+09 -0.030672 -130.762575
4.780000e+09 -0.030847 -131.035492
4.790000e+09 -0.030099 -131.295554
4.800000e+09 -0.028715 -131.560435
4.810000e+09 -0.028867 -131.819149
4.820000e+09 -0.031058 -132.095726
4.830000e+09 -0.031076 -132.348729
4.840000e+09 -0.031534 -132.617706
4.850000e+09 -0.030223 -132.880470
4.860000e+09 -0.030598 -133.150812
4.870000e+09 -0.028244 -133.422715
4.880000e+09 -0.027349 -133.683782
4.890000e+09 -0.028143 -133.933303
4.900000e+09 -0.026352 -134.184325
4.910000e+09 -0.025270 -134.423576
4.920000e+09 -0.023306 -134.676935
4.930000e+09 -0.023993 -134.929921
4.940000e+09 -0.025679 -135.169942
4.950000e+09 -0.028048 -135.428151
4.960000e+09 -0.028802 -135.689507
4.970000e+09 -0.028849 -135.945962
4.980000e+09 -0.030015 -136.234660
4.990000e+09 -0.028745 -136.497951
5.000000e+09 -0.028622 -136.772914
5.010000e+09 -0.026432 -136.974181
5.020000e+09 -0.027376 -137.213318
5.030000e+09 -0.026495 -137.462702
5.040000e+09 -0.026048 -137.705481
5.050000e+09 -0.026873 -137.959360
5.060000e+09 -0.029951 -138.203527
5.070000e+09 -0.031247 -138.449105
5.080000e+09 -0.031965 -138.703944
5.090000e+09 -0.030818 -138.976819
5.100000e+09 -0.030013 -139.235004
5.110000e+09 -0.028155 -139.499951
5.120000e+09 -0.028051 -139.754150
5.130000e+09 -0.026551 -140.009626
5.140000e+09 -0.024797 -140.271903
5.150000e+09 -0.025128 -140.537459
5.160000e+09 -0.024732 -140.796086
5.170000e+09 -0.025051 -141.054409
5.180000e+09 -0.026574 -141.319098
5.190000e+09 -0.027720 -141.583547
5.200000e+09 -0.028885 -141.844446
5.210000e+09 -0.030921 -142.104278
5.220000e+09 -0.030329 -142.363519
5.230000e+09 -0.031507 -142.626725
5.240000e+09 -0.032960 -142.878361
5.250000e+09 -0.032441 -143.128812
5.260000e+09 -0.029874 -143.378845
5.270000e+09 -0.029588 -143.620153
5.280000e+09 -0.028601 -143.872283
5.290000e+09 -0.028735 -144.128539
5.300000e+09 -0.028904 -144.370074
5.310000e+09 -0.028753 -144.628518
5.320000e+09 -0.029436 -144.890057
5.330000e+09 -0.030516 -145.154847
5.340000e+09 -0.031049 -145.418550
5.350000e+09 -0.032136 -145.686936
5.360000e+09 -0.033897 -145.962009
5.370000e+09 -0.034441 -146.228285
5.380000e+09 -0.033875 -146.487056
5.390000e+09 -0.033205 -146.746586
5.400000e+09 -0.032535 -147.005725
5.410000e+09 -0.031127 -147.263016
5.420000e+09 -0.030977 -147.516552
5.430000e+09 -0.030064 -147.764099
5.440000e+09 -0.031080 -148.007425
5.450000e+09 -0.032423 -148.243074
5.460000e+09 -0.034538 -148.496061
5.470000e+09 -0.035429 -148.758477
5.480000e+09 -0.035958 -149.015485
5.490000e+09 -0.036572 -149.285463
5.500000e+09 -0.038004 -149.557119
5.510000e+09 -0.038488 -149.826947
5.520000e+09 -0.039039 -150.102402
5.530000e+09 -0.038977 -150.374591
5.540000e+09 -0.039526 -150.637484
5.550000e+09 -0.038357 -150.899731
5.560000e+09 -0.037517 -151.163969
5.570000e+09 -0.038506 -151.408553
5.580000e+09 -0.038437 -151.651025
5.590000e+09 -0.038860 -151.892904
5.600000e+09 -0.040008 -152.133804
5.610000e+09 -0.040954 -152.385241
5.620000e+09 -0.043630 -152.644656
5.630000e+09 -0.044344 -152.903835
5.640000e+09 -0.043216 -153.181199
5.650000e+09 -0.043160 -153.449542
5.660000e+09 -0.044337 -153.712297
5.670000e+09 -0.045207 -153.966605
5.680000e+09 -0.045906 -154.226946
5.690000e+09 -0.045767 -154.494941
5.700000e+09 -0.046306 -154.767869
5.710000e+09 -0.047598 -155.032541
5.720000e+09 -0.047819 -155.294196
5.730000e+09 -0.047722 -155.567500
5.740000e+09 -0.047490 -155.829935
5.750000e+09 -0.047992 -156.079891
5.760000e+09 -0.048520 -156.319487
5.770000e+09 -0.049439 -156.566539
5.780000e+09 -0.050057 -156.822979
5.790000e+09 -0.050573 -157.090663
5.800000e+09 -0.051075 -157.338950
5.810000e+09 -0.050098 -157.595197
5.820000e+09 -0.048984 -157.854534
5.830000e+09 -0.049646 -158.116217
5.840000e+09 -0.050393 -158.372456
5.850000e+09 -0.050373 -158.634213
5.860000e+09 -0.051442 -158.899881
5.870000e+09 -0.053152 -159.157412
5.880000e+09 -0.054707 -159.423176
5.890000e+09 -0.056333 -159.688007
5.900000e+09 -0.056622 -159.943647
5.910000e+09 -0.058196 -160.207763
5.920000e+09 -0.058283 -160.462989
5.930000e+09 -0.058091 -160.713732
5.940000e+09 -0.058967 -160.962542
5.950000e+09 -0.061714 -161.218386
5.960000e+09 -0.061276 -161.471934
5.970000e+09 -0.060246 -161.729434
5.980000e+09 -0.058425 -161.969710
5.990000e+09 -0.058026 -162.212307
6.000000e+09 -0.059511 -162.464369
6.010000e+09 -0.061595 -162.726793
6.020000e+09 -0.064317 -162.996263
6.030000e+09 -0.064452 -163.277578
6.040000e+09 -0.064186 -163.554111
6.050000e+09 -0.064817 -163.823823
6.060000e+09 -0.065077 -164.089692
6.070000e+09 -0.065426 -164.357441
6.080000e+09 -0.064800 -164.623092
6.090000e+09 -0.064727 -164.880348
6.100000e+09 -0.066530 -165.128386
6.110000e+09 -0.066471 -165.375164
6.120000e+09 -0.068299 -165.622007
6.130000e+09 -0.068699 -165.873952
6.140000e+09 -0.069043 -166.123289
6.150000e+09 -0.067786 -166.373720
6.160000e+09 -0.067011 -166.623484
6.170000e+09 -0.068508 -166.866812
6.180000e+09 -0.070946 -167.126814
6.190000e+09 -0.071713 -167.395028
6.200000e+09 -0.071974 -167.664132
6.210000e+09 -0.072229 -167.929963
6.220000e+09 -0.071549 -168.197155
6.230000e+09 -0.072585 -168.469805
6.240000e+09 -0.072865 -168.738992
6.250000e+09 -0.071822 -169.007893
6.260000e+09 -0.070486 -169.270222
6.270000e+09 -0.069490 -169.527508
6.280000e+09 -0.070071 -169.783856
6.290000e+09 -0.070938 -170.029116
6.300000e+09 -0.070989 -170.280844
6.310000e+09 -0.071994 -170.531473
6.320000e+09 -0.072371 -170.784071
6.330000e+09 -0.071573 -171.030007
6.340000e+09 -0.071579 -171.289393
6.350000e+09 -0.071948 -171.545843
6.360000e+09 -0.072579 -171.804507
6.370000e+09 -0.072317 -172.071743
6.380000e+09 -0.071855 -172.333924
6.390000e+09 -0.071289 -172.597184
6.400000e+09 -0.072044 -172.860693
6.410000e+09 -0.072850 -173.123124
6.420000e+09 -0.073206 -173.394014
6.430000e+09 -0.071726 -173.648445
6.440000e+09 -0.071231 -173.906238
6.450000e+09 -0.070745 -174.158010
6.460000e+09 -0.070992 -174.412006
6.470000e+09 -0.070972 -174.674756
6.480000e+09 -0.071107 -174.932032
6.490000e+09 -0.070842 -175.181392
6.500000e+09 -0.069966 -175.440254
6.510000e+09 -0.068779 -175.695484
6.520000e+09 -0.067741 -175.953527
6.530000e+09 -0.068582 -176.202468
6.540000e+09 -0.068469 -176.459456
6.550000e+09 -0.068039 -176.715515
6.560000e+09 -0.068308 -176.977631
6.570000e+09 -0.068440 -177.246645
6.580000e+09 -0.068682 -177.508491
6.590000e+09 -0.068209 -177.770114
6.600000e+09 -0.067003 -178.024362
6.610000e+09 -0.067050 -178.279777
6.620000e+09 -0.066512 -178.521875
6.630000e+09 -0.064797 -178.768584
6.640000e+09 -0.064972 -179.026950
6.650000e+09 -0.065889 -179.276869
6.660000e+09 -0.066181 -179.525636
6.670000e+09 -0.066259 -179.775091
6.680000e+09 -0.064891  179.971663
6.690000e+09 -0.063465  179.706936
6.700000e+09 -0.062463  179.441535
6.710000e+09 -0.061477  179.185913
6.720000e+09 -0.059869  178.929296
6.730000e+09 -0.058478  178.676540
6.740000e+09 -0.057953  178.416115
6.750000e+09 -0.059735  178.154422
6.760000e+09 -0.060638  177.896805
6.770000e+09 -0.061498  177.647445
6.780000e+09 -0.061833  177.395981
6.790000e+09 -0.062078  177.147563
6.800000e+09 -0.060806  176.890904
6.810000e+09 -0.059192  176.644236
6.820000e+09 -0.057465  176.404164
6.830000e+09 -0.057037  176.160697
6.840000e+09 -0.056671  175.919879
6.850000e+09 -0.057299  175.671503
6.860000e+09 -0.056638  175.423472
6.870000e+09 -0.057288  175.170221
6.880000e+09 -0.055565  174.916479
6.890000e+09 -0.054849  174.658400
6.900000e+09 -0.053169  174.399471
6.910000e+09 -0.051516  174.143282
6.920000e+09 -0.049544  173.889674
6.930000e+09 -0.050364  173.636050
6.940000e+09 -0.052267  173.385053
6.950000e+09 -0.055761  173.140674
6.960000e+09 -0.056623  172.896767
6.970000e+09 -0.057258  172.642965
6.980000e+09 -0.056320  172.380804
6.990000e+09 -0.055740  172.133710
7.000000e+09 -0.054297  171.894783
7.010000e+09 -0.050584  171.660749
7.020000e+09 -0.047351  171.414526
7.030000e+09 -0.047638  171.184551
7.040000e+09 -0.047591  170.952235
7.050000e+09 -0.049491  170.711395
7.060000e+09 -0.050156  170.450296
7.070000e+09 -0.051752  170.180354
7.080000e+09 -0.054202  169.915301
7.090000e+09 -0.054423  169.643186
7.100000e+09 -0.053340  169.374444
7.110000e+09 -0.053620  169.106151
7.120000e+09 -0.053629  168.854131
7.130000e+09 -0.053465  168.588566
7.140000e+09 -0.051779  168.335217
7.150000e+09 -0.050483  168.080046
7.160000e+09 -0.049553  167.834522
7.170000e+09 -0.047002  167.597638
7.180000e+09 -0.045034  167.359745
7.190000e+09 -0.041652  167.125813
7.200000e+09 -0.040726  166.897899
7.210000e+09 -0.041255  166.672893
7.220000e+09 -0.042730  166.437702
7.230000e+09 -0.043567  166.184857
7.240000e+09 -0.045991  165.925456
7.250000e+09 -0.048411  165.657142
7.260000e+09 -0.051684  165.385993
7.270000e+09 -0.052487  165.107282
7.280000e+09 -0.052039  164.829911
7.290000e+09 -0.049184  164.559823
7.300000e+09 -0.046893  164.294620
7.310000e+09 -0.044186  164.044882
7.320000e+09 -0.042467  163.817076
7.330000e+09 -0.039330  163.590326
7.340000e+09 -0.038144  163.372761
7.350000e+09 -0.036758  163.147192
7.360000e+09 -0.037880  162.911985
7.370000e+09 -0.040000  162.681275
7.380000e+09 -0.041146  162.433123
7.390000e+09 -0.042078  162.176495
7.400000e+09 -0.043485  161.913410
7.410000e+09 -0.043897  161.663566
7.420000e+09 -0.044101  161.403112
7.430000e+09 -0.043686  161.140335
7.440000e+09 -0.042681  160.877393
7.450000e+09 -0.043009  160.617639
7.460000e+09 -0.043799  160.369273
7.470000e+09 -0.043387  160.129988
7.480000e+09 -0.041673  159.885987
7.490000e+09 -0.041171  159.652992
7.500000e+09 -0.041709  159.411745
7.510000e+09 -0.041324  159.180165
7.520000e+09 -0.042196  158.943853
7.530000e+09 -0.042283  158.702747
7.540000e+09 -0.043004  158.457388
7.550000e+09 -0.044768  158.206312
7.560000e+09 -0.045483  157.952296
7.570000e+09 -0.046337  157.692897
7.580000e+09 -0.046897  157.430196
7.590000e+09 -0.047839  157.173645
7.600000e+09 -0.046551  156.912376
7.610000e+09 -0.046986  156.660343
7.620000e+09 -0.046739  156.411011
7.630000e+09 -0.047069  156.161640
7.640000e+09 -0.047245  155.916049
7.650000e+09 -0.046563  155.673077
7.660000e+09 -0.047860  155.426426
7.670000e+09 -0.048701  155.188542
7.680000e+09 -0.048596  154.962751
7.690000e+09 -0.046899  154.732638
7.700000e+09 -0.047767  154.491717
7.710000e+09 -0.049434  154.261735
7.720000e+09 -0.050165  154.023456
7.730000e+09 -0.050997  153.788208
7.740000e+09 -0.051210  153.543972
7.750000e+09 -0.051954  153.293136
7.760000e+09 -0.052973  153.039970
7.770000e+09 -0.054197  152.789686
7.780000e+09 -0.052924  152.541272
7.790000e+09 -0.054557  152.289389
7.800000e+09 -0.054356  152.035859
7.810000e+09 -0.056017  151.772700
7.820000e+09 -0.056100  151.513493
7.830000e+09 -0.056784  151.241316
7.840000e+09 -0.056556  150.984700
7.850000e+09 -0.054823  150.735350
7.860000e+09 -0.053851  150.495168
7.870000e+09 -0.054147  150.260522
7.880000e+09 -0.055489  150.035334
7.890000e+09 -0.056122  149.805305
7.900000e+09 -0.056127  149.563820
7.910000e+09 -0.058778  149.324721
7.920000e+09 -0.060723  149.080083
7.930000e+09 -0.063087  148.823979
7.940000e+09 -0.063856  148.560240
7.950000e+09 -0.066384  148.285264
7.960000e+09 -0.066880  148.026884
7.970000e+09 -0.067501  147.762280
7.980000e+09 -0.067275  147.504146
7.990000e+09 -0.066667  147.241771
8.000000e+09 -0.065391  146.988092
8.010000e+09 -0.063897  146.739348
8.020000e+09 -0.063297  146.506113
8.030000e+09 -0.062837  146.277753
8.040000e+09 -0.065112  146.053633
8.050000e+09 -0.065293  145.822747
8.060000e+09 -0.066499  145.595202
8.070000e+09 -0.066047  145.354986
8.080000e+09 -0.068333  145.114639
8.090000e+09 -0.068677  144.869707
8.100000e+09 -0.071335  144.610331
8.110000e+09 -0.071548  144.362640
8.120000e+09 -0.073708  144.084796
8.130000e+09 -0.074069  143.814125
8.140000e+09 -0.075390  143.540137
8.150000e+09 -0.073851  143.267663
8.160000e+09 -0.072871  142.990617
8.170000e+09 -0.073058  142.727071
8.180000e+09 -0.072807  142.467833
8.190000e+09 -0.072379  142.225153
8.200000e+09 -0.071582  141.983223
8.210000e+09 -0.072884  141.743490
8.220000e+09 -0.074410  141.506571
8.230000e+09 -0.076137  141.267501
8.240000e+09 -0.076825  141.036192
8.250000e+09 -0.076910  140.800360
8.260000e+09 -0.077619  140.562328
8.270000e+09 -0.077523  140.328783
8.280000e+09 -0.078638  140.076067
8.290000e+09 -0.076321  139.837511
8.300000e+09 -0.076529  139.583270
8.310000e+09 -0.076729  139.329003
8.320000e+09 -0.077402  139.074991
8.330000e+09 -0.078554  138.805728
8.340000e+09 -0.078594  138.538735
8.350000e+09 -0.078539  138.281196
8.360000e+09 -0.078461  138.028836
8.370000e+09 -0.076967  137.770995
8.380000e+09 -0.077689  137.521578
8.390000e+09 -0.077527  137.277197
8.400000e+09 -0.077285  137.037024
8.410000e+09 -0.077845  136.795640
8.420000e+09 -0.078517  136.564588
8.430000e+09 -0.079127  136.319280
8.440000e+09 -0.078951  136.073506
8.450000e+09 -0.079780  135.835724
8.460000e+09 -0.078764  135.587845
8.470000e+09 -0.077649  135.339018
8.480000e+09 -0.076249  135.084645
8.490000e+09 -0.076773  134.820742
8.500000e+09 -0.077994  134.554174
8.510000e+09 -0.079501  134.290816
8.520000e+09 -0.078166  134.022162
8.530000e+09 -0.077855  133.758046
8.540000e+09 -0.076782  133.502000
8.550000e+09 -0.076118  133.255820
8.560000e+09 -0.075119  133.008276
8.570000e+09 -0.073732  132.778118
8.580000e+09 -0.071888  132.540208
8.590000e+09 -0.072395  132.309292
8.600000e+09 -0.072504  132.071460
8.610000e+09 -0.074085  131.831484
8.620000e+09 -0.074562  131.599426
8.630000e+09 -0.074943  131.359402
8.640000e+09 -0.074173  131.109194
8.650000e+09 -0.074208  130.861415
8.660000e+09 -0.074483  130.593177
8.670000e+09 -0.076101  130.320195
8.680000e+09 -0.075669  130.043459
8.690000e+09 -0.074980  129.783087
8.700000e+09 -0.073731  129.529006
8.710000e+09 -0.072373  129.273420
8.720000e+09 -0.071027  129.023906
8.730000e+09 -0.069856  128.779212
8.740000e+09 -0.068230  128.541977
8.750000e+09 -0.067735  128.311510
8.760000e+09 -0.067521  128.079752
8.770000e+09 -0.067966  127.840273
8.780000e+09 -0.070049  127.601696
8.790000e+09 -0.071265  127.369073
8.800000e+09 -0.070704  127.135803
8.810000e+09 -0.070370  126.893306
8.820000e+09 -0.068631  126.641108
8.830000e+09 -0.067813  126.367453
8.840000e+09 -0.068935  126.100631
8.850000e+09 -0.067812  125.846454
8.860000e+09 -0.067262  125.603496
8.870000e+09 -0.066700  125.344448
8.880000e+09 -0.065554  125.097603
8.890000e+09 -0.064612  124.858328
8.900000e+09 -0.063575  124.607525
8.910000e+09 -0.063405  124.358395
8.920000e+09 -0.062701  124.112292
8.930000e+09 -0.063219  123.870049
8.940000e+09 -0.063659  123.620723
8.950000e+09 -0.061993  123.380120
8.960000e+09 -0.061774  123.143740
8.970000e+09 -0.061098  122.897940
8.980000e+09 -0.061669  122.656015
8.990000e+09 -0.062079  122.416107
9.000000e+09 -0.060576  122.148390
9.010000e+09 -0.060466  121.881631
9.020000e+09 -0.058005  121.611225
9.030000e+09 -0.057474  121.351173
9.040000e+09 -0.055575  121.098927
9.050000e+09 -0.054167  120.868490
9.060000e+09 -0.053357  120.636301
9.070000e+09 -0.051398  120.407712
9.080000e+09 -0.050361  120.169745
9.090000e+09 -0.051615  119.948302
9.100000e+09 -0.051878  119.720983
9.110000e+09 -0.051788  119.488476
9.120000e+09 -0.049535  119.262292
9.130000e+09 -0.048178  119.031353
9.140000e+09 -0.048409  118.795982
9.150000e+09 -0.050121  118.563404
9.160000e+09 -0.050188  118.325234
9.170000e+09 -0.051035  118.065418
9.180000e+09 -0.050002  117.796626
9.190000e+09 -0.050308  117.530623
9.200000e+09 -0.049879  117.266871
9.210000e+09 -0.049458  117.015033
9.220000e+09 -0.046133  116.748321
9.230000e+09 -0.043223  116.477579
9.240000e+09 -0.043798  116.230596
9.250000e+09 -0.044046  116.004625
9.260000e+09 -0.043724  115.774349
9.270000e+09 -0.043926  115.545716
9.280000e+09 -0.045288  115.310000
9.290000e+09 -0.045768  115.075914
9.300000e+09 -0.044704  114.851397
9.310000e+09 -0.043209  114.623370
9.320000e+09 -0.043016  114.399187
9.330000e+09 -0.044009  114.162325
9.340000e+09 -0.043166  113.921475
9.350000e+09 -0.042608  113.683165
9.360000e+09 -0.040758  113.441298
9.370000e+09 -0.040246  113.204931
9.380000e+09 -0.039345  112.955803
9.390000e+09 -0.038766  112.715859
9.400000e+09 -0.038921  112.470550
9.410000e+09 -0.037426  112.235925
9.420000e+09 -0.037423  112.005694
9.430000e+09 -0.037528  111.775916
9.440000e+09 -0.037782  111.542903
9.450000e+09 -0.038499  111.313819
9.460000e+09 -0.038585  111.074368
9.470000e+09 -0.039269  110.843763
9.480000e+09 -0.039524  110.612382
9.490000e+09 -0.038590  110.376716
9.500000e+09 -0.038711  110.130077
9.510000e+09 -0.040443  109.888256
9.520000e+09 -0.041034  109.638187
9.530000e+09 -0.039622  109.386463
9.540000e+09 -0.039807  109.136513
9.550000e+09 -0.039063  108.887675
9.560000e+09 -0.038605  108.644689
9.570000e+09 -0.037920  108.410483
9.580000e+09 -0.036860  108.163478
9.590000e+09 -0.037354  107.929520
9.600000e+09 -0.037308  107.702173
9.610000e+09 -0.038955  107.476085
9.620000e+09 -0.039927  107.250612
9.630000e+09 -0.039116  107.033311
9.640000e+09 -0.037382  106.812532
9.650000e+09 -0.038212  106.579494
9.660000e+09 -0.039122  106.351645
9.670000e+09 -0.039502  106.123698
9.680000e+09 -0.039800  105.895305
9.690000e+09 -0.039996  105.650711
9.700000e+09 -0.040610  105.390125
9.710000e+09 -0.041608  105.146261
9.720000e+09 -0.040474  104.896058
9.730000e+09 -0.041855  104.634829
9.740000e+09 -0.041262  104.375683
9.750000e+09 -0.041330  104.119074
9.760000e+09 -0.042769  103.869581
9.770000e+09 -0.043444  103.628722
9.780000e+09 -0.043954  103.394867
9.790000e+09 -0.043189  103.167584
9.800000e+09 -0.041726  102.942940
9.810000e+09 -0.042143  102.724255
9.820000e+09 -0.043852  102.511874
9.830000e+09 -0.044011  102.282463
9.840000e+09 -0.043881  102.052952
9.850000e+09 -0.045854  101.824445
9.860000e+09 -0.046145  101.583085
9.870000e+09 -0.046607  101.338504
9.880000e+09 -0.046516  101.082446
9.890000e+09 -0.048025  100.826667
9.900000e+09 -0.047602  100.555102
9.910000e+09 -0.048164  100.294181
9.920000e+09 -0.049339  100.018889
9.930000e+09 -0.050002   99.761888
9.940000e+09 -0.050018   99.515020
9.950000e+09 -0.049251   99.275492
9.960000e+09 -0.048304   99.033069
9.970000e+09 -0.048964   98.795250
9.980000e+09 -0.050259   98.572729
9.990000e+09 -0.049990   98.362399
1.000000e+10 -0.049837   98.145183
1.001000e+10 -0.051596   97.917012
1.002000e+10 -0.053204   97.679011
1.003000e+10 -0.054468   97.433890
1.004000e+10 -0.053180   97.201676
1.005000e+10 -0.053934   96.946541
1.006000e+10 -0.054217   96.686711
1.007000e+10 -0.055534   96.422636
1.008000e+10 -0.054952   96.164616
1.009000e+10 -0.054952   95.912101
1.010000e+10 -0.054288   95.650612
1.011000e+10 -0.055281   95.403172
1.012000e+10 -0.054435   95.160611
1.013000e+10 -0.056227   94.915299
1.014000e+10 -0.056388   94.677911
1.015000e+10 -0.055269   94.453292
1.016000e+10 -0.056027   94.218071
1.017000e+10 -0.055750   93.999762
1.018000e+10 -0.054366   93.769637
1.019000e+10 -0.055201   93.528737
1.020000e+10 -0.056635   93.295934
1.021000e+10 -0.056751   93.056077
1.022000e+10 -0.057452   92.795158
1.023000e+10 -0.059715   92.539679
1.024000e+10 -0.060598   92.280029
1.025000e+10 -0.060691   92.011720
1.026000e+10 -0.062824   91.754151
1.027000e+10 -0.062161   91.500275
1.028000e+10 -0.063726   91.236954
1.029000e+10 -0.064426   90.979193
1.030000e+10 -0.063666   90.733468
1.031000e+10 -0.063033   90.490156
1.032000e+10 -0.063439   90.246346
1.033000e+10 -0.062702   90.019487
1.034000e+10 -0.061993   89.792482
1.035000e+10 -0.061752   89.571557
1.036000e+10 -0.061436   89.344960
1.037000e+10 -0.062576   89.102776
1.038000e+10 -0.063493   88.860698
1.039000e+10 -0.066332   88.624102
1.040000e+10 -0.067919   88.365587
1.041000e+10 -0.070093   88.090147
1.042000e+10 -0.070760   87.825226
1.043000e+10 -0.071345   87.547132
1.044000e+10 -0.071507   87.280523
1.045000e+10 -0.071789   87.010290
1.046000e+10 -0.070874   86.753931
1.047000e+10 -0.069572   86.493768
1.048000e+10 -0.068298   86.254037
1.049000e+10 -0.067207   86.018061
1.050000e+10 -0.064520   85.795187
1.051000e+10 -0.063564   85.564113
1.052000e+10 -0.064337   85.337090
1.053000e+10 -0.064505   85.119902
1.054000e+10 -0.065744   84.883619
1.055000e+10 -0.067304   84.646784
1.056000e+10 -0.068073   84.395722
1.057000e+10 -0.070828   84.141179
1.058000e+10 -0.072756   83.879413
1.059000e+10 -0.072552   83.602428
1.060000e+10 -0.072654   83.320454
1.061000e+10 -0.072402   83.051831
1.062000e+10 -0.071750   82.780006
1.063000e+10 -0.071951   82.516814
1.064000e+10 -0.071470   82.251828
1.065000e+10 -0.070204   82.000743
1.066000e+10 -0.069098   81.753852
1.067000e+10 -0.068462   81.526276
1.068000e+10 -0.067867   81.297214
1.069000e+10 -0.069133   81.068730
1.070000e+10 -0.070190   80.843108
1.071000e+10 -0.070869   80.604196
1.072000e+10 -0.071110   80.373142
1.073000e+10 -0.071909   80.137227
1.074000e+10 -0.071880   79.891440
1.075000e+10 -0.071048   79.637279
1.076000e+10 -0.071694   79.374127
1.077000e+10 -0.071988   79.106474
1.078000e+10 -0.071843   78.834006
1.079000e+10 -0.072217   78.562358
1.080000e+10 -0.072518   78.286522
1.081000e+10 -0.072130   78.037378
1.082000e+10 -0.070875   77.784919
1.083000e+10 -0.071678   77.548119
1.084000e+10 -0.070098   77.297603
1.085000e+10 -0.070408   77.064408
1.086000e+10 -0.070613   76.836847
1.087000e+10 -0.068204   76.593075
1.088000e+10 -0.066817   76.365714
1.089000e+10 -0.066763   76.131827
1.090000e+10 -0.065237   75.895594
1.091000e+10 -0.064334   75.654711
1.092000e+10 -0.066054   75.400908
1.093000e+10 -0.067654   75.148489
1.094000e+10 -0.067418   74.884165
1.095000e+10 -0.068262   74.627637
1.096000e+10 -0.067600   74.357474
1.097000e+10 -0.068365   74.102548
1.098000e+10 -0.069378   73.847040
1.099000e+10 -0.070428   73.583202
1.100000e+10 -0.072183   73.334377
1.101000e+10 -0.070087   73.088315
1.102000e+10 -0.066600   72.841254
1.103000e+10 -0.065014   72.584903
1.104000e+10 -0.066049   72.346699
1.105000e+10 -0.064829   72.113265
1.106000e+10 -0.062861   71.890729
1.107000e+10 -0.060655   71.662881
1.108000e+10 -0.061697   71.415946
1.109000e+10 -0.063329   71.166036
1.110000e+10 -0.061795   70.920772
1.111000e+10 -0.060549   70.673172
1.112000e+10 -0.062599   70.419239
1.113000e+10 -0.063545   70.170081
1.114000e+10 -0.064233   69.923608
1.115000e+10 -0.063580   69.669182
1.116000e+10 -0.063708   69.408558
1.117000e+10 -0.063306   69.164334
1.118000e+10 -0.059031   68.908839
1.119000e+10 -0.058612   68.657224
1.120000e+10 -0.055542   68.405402
1.121000e+10 -0.055753   68.170604
1.122000e+10 -0.055192   67.952721
1.123000e+10 -0.052507   67.741692
1.124000e+10 -0.051901   67.503704
1.125000e+10 -0.053278   67.266741
1.126000e+10 -0.054371   66.986880
1.127000e+10 -0.056985   66.740457
1.128000e+10 -0.057920   66.488091
1.129000e+10 -0.057408   66.240643
1.130000e+10 -0.057982   65.974541
1.131000e+10 -0.057955   65.736908
1.132000e+10 -0.057255   65.455374
1.133000e+10 -0.055685   65.185170
1.134000e+10 -0.053935   64.910672
1.135000e+10 -0.052817   64.658492
1.136000e+10 -0.052133   64.424705
1.137000e+10 -0.048545   64.194420
1.138000e+10 -0.047073   63.960988
1.139000e+10 -0.046770   63.746174
1.140000e+10 -0.047530   63.515442
1.141000e+10 -0.048111   63.296336
1.142000e+10 -0.046581   63.066749
1.143000e+10 -0.046982   62.830149
1.144000e+10 -0.046096   62.580502
1.145000e+10 -0.048150   62.360375
1.146000e+10 -0.048767   62.123694
1.147000e+10 -0.049833   61.860601
1.148000e+10 -0.047779   61.594394
1.149000e+10 -0.048763   61.319422
1.150000e+10 -0.048692   61.047970
1.151000e+10 -0.048629   60.796238
1.152000e+10 -0.045577   60.542812
1.153000e+10 -0.043502   60.297533
1.154000e+10 -0.042502   60.051840
1.155000e+10 -0.043244   59.816523
1.156000e+10 -0.043933   59.587162
1.157000e+10 -0.044965   59.371647
1.158000e+10 -0.044354   59.131347
1.159000e+10 -0.044166   58.898790
1.160000e+10 -0.044160   58.662343
1.161000e+10 -0.043682   58.421394
1.162000e+10 -0.042508   58.179252
1.163000e+10 -0.044344   57.930295
1.164000e+10 -0.045339   57.682821
1.165000e+10 -0.045294   57.418394
1.166000e+10 -0.045701   57.147579
1.167000e+10 -0.045638   56.881544
1.168000e+10 -0.045730   56.614567
1.169000e+10 -0.044792   56.363205
1.170000e+10 -0.042288   56.101911
1.171000e+10 -0.042175   55.850364
1.172000e+10 -0.040530   55.605058
1.173000e+10 -0.040247   55.371204
1.174000e+10 -0.038414   55.140725
1.175000e+10 -0.038417   54.910530
1.176000e+10 -0.040057   54.680920
1.177000e+10 -0.041309   54.454828
1.178000e+10 -0.041592   54.225613
1.179000e+10 -0.042467   53.987305
1.180000e+10 -0.044070   53.741479
1.181000e+10 -0.045858   53.480428
1.182000e+10 -0.047282   53.217705
1.183000e+10 -0.048795   52.954731
1.184000e+10 -0.046335   52.682337
1.185000e+10 -0.047453   52.415074
1.186000e+10 -0.047613   52.142703
1.187000e+10 -0.046875   51.882138
1.188000e+10 -0.046258   51.625555
1.189000e+10 -0.044377   51.380791
1.190000e+10 -0.042906   51.133356
1.191000e+10 -0.043191   50.905730
1.192000e+10 -0.042460   50.685019
1.193000e+10 -0.043631   50.455358
1.194000e+10 -0.042848   50.223913
1.195000e+10 -0.042496   49.990962
1.196000e+10 -0.044326   49.761185
1.197000e+10 -0.044845   49.522323
1.198000e+10 -0.047474   49.268090
1.199000e+10 -0.048294   49.023044
1.200000e+10 -0.049796   48.760105
